Sensor Model:   RU-1000-BF0.007
Serial Number:  R10550
Data Format:    4      (Log Ohms/Kelvin)
SetPoint Limit: 100.0      (Kelvin)
Temperature coefficient:  1 (Negative)
Number of Breakpoints:   198

No.   Units      Temperature (K)

1	3.03594	102
2	3.03644	99
3	3.03701	96.5
4	3.03771	94
5	3.03853	91.5
6	3.03946	89
7	3.0405	86.5
8	3.04165	84
9	3.04288	81.5
10	3.0442	79
11	3.04561	76.5
12	3.04709	74
13	3.04865	71.5
14	3.05028	69
15	3.05164	67
16	3.05304	65
17	3.05448	63
18	3.05598	61
19	3.05752	59
20	3.05912	57
21	3.06077	55
22	3.06249	53
23	3.06427	51
24	3.06613	49
25	3.06787	47.2
26	3.06968	45.4
27	3.07158	43.6
28	3.07358	41.8
29	3.0758	39.9
30	3.0779	38.2
31	3.08011	36.5
32	3.08232	34.9
33	3.08465	33.3
34	3.08713	31.7
35	3.0896	30.2
36	3.09222	28.7
37	3.09501	27.2
38	3.09778	25.8
39	3.1005	24.5
40	3.1034	23.2
41	3.10647	21.9
42	3.10948	20.7
43	3.11185	19.8
44	3.11377	19.1
45	3.11576	18.4
46	3.11782	17.7
47	3.11979	17.05
48	3.12184	16.4
49	3.12395	15.75
50	3.12597	15.15
51	3.12806	14.55
52	3.13021	13.95
53	3.13226	13.4
54	3.13437	12.85
55	3.13655	12.3
56	3.1386	11.8
57	3.14073	11.3
58	3.14292	10.8
59	3.1452	10.3
60	3.14733	9.85
61	3.14954	9.4
62	3.15183	8.95
63	3.15396	8.55
64	3.15617	8.15
65	3.15849	7.75
66	3.16091	7.35
67	3.16347	6.95
68	3.16582	6.6
69	3.16831	6.25
70	3.17111	5.88
71	3.17385	5.54
72	3.17661	5.22
73	3.17939	4.92
74	3.18237	4.62
75	3.1856	4.32
76	3.18887	4.04
77	3.19153	3.83
78	3.19395	3.65
79	3.19654	3.47
80	3.19931	3.29
81	3.20211	3.12
82	3.20513	2.95
83	3.20818	2.79
84	3.21148	2.63
85	3.21482	2.48
86	3.21844	2.33
87	3.22211	2.19
88	3.2261	2.05
89	3.23014	1.92
90	3.23456	1.79
91	3.23904	1.67
92	3.24352	1.56
93	3.24845	1.45
94	3.25388	1.34
95	3.25936	1.24
96	3.26294	1.18
97	3.26578	1.135
98	3.26878	1.09
99	3.27195	1.045
100	3.2753	1
101	3.27845	0.96
102	3.28179	0.92
103	3.28533	0.88
104	3.28909	0.84
105	3.2931	0.8
106	3.29684	0.765
107	3.30082	0.73
108	3.30508	0.695
109	3.30963	0.66
110	3.31454	0.625
111	3.31906	0.595
112	3.3239	0.565
113	3.32912	0.535
114	3.33476	0.505
115	3.33941	0.482
116	3.34371	0.462
117	3.34827	0.442
118	3.35313	0.422
119	3.35779	0.404
120	3.36446	0.38
121	3.37048	0.36
122	3.37698	0.34
123	3.38401	0.32
124	3.39165	0.3
125	3.40001	0.28
126	3.4092	0.26
127	3.41934	0.24
128	3.43063	0.22
129	3.44329	0.2
130	3.4467	0.195
131	3.45022	0.19
132	3.45386	0.185
133	3.45761	0.18
134	3.4615	0.175
135	3.46552	0.17
136	3.46968	0.165
137	3.47399	0.16
138	3.47847	0.155
139	3.48311	0.15
140	3.48794	0.145
141	3.49297	0.14
142	3.49821	0.135
143	3.50367	0.13
144	3.50938	0.125
145	3.51536	0.12
146	3.52162	0.115
147	3.5282	0.11
148	3.53512	0.105
149	3.54241	0.1
150	3.55013	0.095
151	3.55832	0.09
152	3.56704	0.085
153	3.57636	0.08
154	3.58636	0.075
155	3.59716	0.07
156	3.60889	0.065
157	3.62173	0.06
158	3.6359	0.055
159	3.65171	0.05
160	3.65859	0.048
161	3.66215	0.047
162	3.66958	0.045
163	3.67344	0.044
164	3.68151	0.042
165	3.69005	0.04
166	3.69452	0.039
167	3.69913	0.038
168	3.70389	0.037
169	3.70881	0.036
170	3.7139	0.035
171	3.71916	0.034
172	3.7246	0.033
173	3.73024	0.032
174	3.73609	0.031
175	3.74216	0.03
176	3.74845	0.029
177	3.75498	0.028
178	3.76177	0.027
179	3.76882	0.026
180	3.77615	0.025
181	3.78376	0.024
182	3.79167	0.023
183	3.79988	0.022
184	3.80839	0.021
185	3.81721	0.02
186	3.82632	0.019
187	3.83571	0.018
188	3.84536	0.017
189	3.85522	0.016
190	3.86524	0.015
191	3.87537	0.014
192	3.88554	0.013
193	3.89575	0.012
194	3.9061	0.011
195	3.91701	0.01
196	3.92968	0.009
197	3.94728	0.008
198	3.97777	0.007
